#Magnetic Field (Oe),Voltage (V) 
-400.00, 0.064570 
-395.00, 0.064570 
-390.00, 0.064570 
-385.00, 0.064571 
-380.00, 0.064572 
-375.00, 0.064573 
-370.00, 0.064574 
-365.00, 0.064575 
-360.00, 0.064576 
-355.00, 0.064578 
-350.00, 0.064578 
-345.00, 0.064579 
-340.00, 0.064580 
-335.00, 0.064581 
-330.00, 0.064582 
-325.00, 0.064584 
-320.00, 0.064585 
-315.00, 0.064586 
-310.00, 0.064587 
-305.00, 0.064589 
-300.00, 0.064590 
-295.00, 0.064590 
-290.00, 0.064592 
-285.00, 0.064593 
-280.00, 0.064594 
-275.00, 0.064595 
-270.00, 0.064597 
-265.00, 0.064598 
-260.00, 0.064599 
-255.00, 0.064601 
-250.00, 0.064602 
-245.00, 0.064604 
-240.00, 0.064605 
-235.00, 0.064607 
-230.00, 0.064608 
-225.00, 0.064610 
-220.00, 0.064611 
-215.00, 0.064613 
-210.00, 0.064614 
-205.00, 0.064616 
-200.00, 0.064617 
-195.00, 0.064619 
-190.00, 0.064621 
-185.00, 0.064622 
-180.00, 0.064624 
-175.00, 0.064626 
-170.00, 0.064628 
-165.00, 0.064631 
-160.00, 0.064633 
-155.00, 0.064636 
-150.00, 0.064638 
-145.00, 0.064640 
-140.00, 0.064641 
-135.00, 0.064644 
-130.00, 0.064646 
-125.00, 0.064649 
-120.00, 0.064651 
-115.00, 0.064654 
-110.00, 0.064656 
-105.00, 0.064659 
-100.00, 0.064662 
-95.00, 0.064665 
-90.00, 0.064668 
-85.00, 0.064671 
-80.00, 0.064674 
-75.00, 0.064677 
-70.00, 0.064680 
-65.00, 0.064683 
-60.00, 0.064687 
-55.00, 0.064691 
-50.00, 0.064694 
-45.00, 0.064698 
-40.00, 0.064703 
-35.00, 0.064708 
-30.00, 0.064713 
-25.00, 0.064719 
-20.00, 0.064725 
-15.00, 0.064732 
-10.00, 0.064741 
-5.00, 0.064754 
-3.06E-14, 0.064770 
5.00, 0.064793 
10.00, 0.064843 
15.00, 0.065014 
20.00, 0.065892 
25.00, 0.068801 
30.00, 0.069180 
35.00, 0.069284 
40.00, 0.069327 
45.00, 0.069346 
50.00, 0.069355 
55.00, 0.069359 
60.00, 0.069358 
65.00, 0.069355 
70.00, 0.069349 
75.00, 0.069341 
80.00, 0.069331 
85.00, 0.069319 
90.00, 0.069305 
95.00, 0.069289 
100.00, 0.069271 
105.00, 0.069250 
110.00, 0.069225 
115.00, 0.069197 
120.00, 0.069166 
125.00, 0.069129 
130.00, 0.069089 
135.00, 0.069043 
140.00, 0.068990 
145.00, 0.068929 
150.00, 0.068858 
155.00, 0.068775 
160.00, 0.068675 
165.00, 0.068553 
170.00, 0.068396 
175.00, 0.068190 
180.00, 0.067912 
185.00, 0.067547 
190.00, 0.067095 
195.00, 0.066591 
200.00, 0.066097 
205.00, 0.065649 
210.00, 0.065270 
215.00, 0.064996 
220.00, 0.064829 
225.00, 0.064742 
230.00, 0.064699 
235.00, 0.064677 
240.00, 0.064665 
245.00, 0.064656 
250.00, 0.064649 
255.00, 0.064642 
260.00, 0.064636 
265.00, 0.064632 
270.00, 0.064628 
275.00, 0.064624 
280.00, 0.064621 
285.00, 0.064617 
290.00, 0.064614 
295.00, 0.064612 
300.00, 0.064609 
305.00, 0.064606 
310.00, 0.064605 
315.00, 0.064603 
320.00, 0.064600 
325.00, 0.064599 
330.00, 0.064597 
335.00, 0.064595 
340.00, 0.064593 
345.00, 0.064591 
350.00, 0.064589 
355.00, 0.064588 
360.00, 0.064587 
365.00, 0.064585 
370.00, 0.064583 
375.00, 0.064582 
380.00, 0.064580 
385.00, 0.064579 
390.00, 0.064578 
395.00, 0.064577 
400.00, 0.064576 
405.00, 0.064575 
405.00, 0.064573 
400.00, 0.064574 
395.00, 0.064574 
390.00, 0.064574 
385.00, 0.064575 
380.00, 0.064576 
375.00, 0.064577 
370.00, 0.064578 
365.00, 0.064579 
360.00, 0.064580 
355.00, 0.064581 
350.00, 0.064582 
345.00, 0.064583 
340.00, 0.064584 
335.00, 0.064584 
330.00, 0.064586 
325.00, 0.064586 
320.00, 0.064587 
315.00, 0.064587 
310.00, 0.064589 
305.00, 0.064589 
300.00, 0.064591 
295.00, 0.064592 
290.00, 0.064593 
285.00, 0.064594 
280.00, 0.064595 
275.00, 0.064596 
270.00, 0.064598 
265.00, 0.064599 
260.00, 0.064601 
255.00, 0.064603 
250.00, 0.064604 
245.00, 0.064606 
240.00, 0.064607 
235.00, 0.064609 
230.00, 0.064610 
225.00, 0.064612 
220.00, 0.064614 
215.00, 0.064615 
210.00, 0.064619 
205.00, 0.064621 
200.00, 0.064623 
195.00, 0.064624 
190.00, 0.064626 
185.00, 0.064628 
180.00, 0.064630 
175.00, 0.064631 
170.00, 0.064633 
165.00, 0.064635 
160.00, 0.064637 
155.00, 0.064639 
150.00, 0.064641 
145.00, 0.064644 
140.00, 0.064646 
135.00, 0.064648 
130.00, 0.064651 
125.00, 0.064653 
120.00, 0.064656 
115.00, 0.064658 
110.00, 0.064661 
105.00, 0.064664 
100.00, 0.064667 
95.00, 0.064670 
90.00, 0.064673 
85.00, 0.064676 
80.00, 0.064679 
75.00, 0.064683 
70.00, 0.064686 
65.00, 0.064689 
60.00, 0.064693 
55.00, 0.064697 
50.00, 0.064701 
45.00, 0.064705 
40.00, 0.064710 
35.00, 0.064715 
30.00, 0.064720 
25.00, 0.064726 
20.00, 0.064733 
15.00, 0.064742 
10.00, 0.064752 
5.00, 0.064768 
-3.06E-14, 0.064790 
-5.00, 0.064832 
-10.00, 0.064978 
-15.00, 0.065836 
-20.00, 0.068832 
-25.00, 0.069248 
-30.00, 0.069337 
-35.00, 0.069376 
-40.00, 0.069392 
-45.00, 0.069399 
-50.00, 0.069402 
-55.00, 0.069400 
-60.00, 0.069394 
-65.00, 0.069386 
-70.00, 0.069376 
-75.00, 0.069364 
-80.00, 0.069349 
-85.00, 0.069330 
-90.00, 0.069310 
-95.00, 0.069286 
-100.00, 0.069259 
-105.00, 0.069227 
-110.00, 0.069189 
-115.00, 0.069146 
-120.00, 0.069094 
-125.00, 0.069035 
-130.00, 0.068964 
-135.00, 0.068878 
-140.00, 0.068773 
-145.00, 0.068645 
-150.00, 0.068479 
-155.00, 0.068262 
-160.00, 0.067974 
-165.00, 0.067593 
-170.00, 0.067121 
-175.00, 0.066589 
-180.00, 0.066057 
-185.00, 0.065600 
-190.00, 0.065272 
-195.00, 0.065063 
-200.00, 0.064929 
-205.00, 0.064841 
-210.00, 0.064782 
-215.00, 0.064741 
-220.00, 0.064712 
-225.00, 0.064693 
-230.00, 0.064680 
-235.00, 0.064671 
-240.00, 0.064664 
-245.00, 0.064660 
-250.00, 0.064656 
-255.00, 0.064652 
-260.00, 0.064649 
-265.00, 0.064646 
-270.00, 0.064643 
-275.00, 0.064640 
-280.00, 0.064637 
-285.00, 0.064635 
-290.00, 0.064634 
-295.00, 0.064631 
-300.00, 0.064630 
-305.00, 0.064628 
-310.00, 0.064627 
-315.00, 0.064625 
-320.00, 0.064624 
-325.00, 0.064622 
-330.00, 0.064621 
-335.00, 0.064619 
-340.00, 0.064618 
-345.00, 0.064616 
-350.00, 0.064615 
-355.00, 0.064614 
-360.00, 0.064612 
-365.00, 0.064611 
-370.00, 0.064610 
-375.00, 0.064609 
-380.00, 0.064607 
-385.00, 0.064607 
-390.00, 0.064606 
-395.00, 0.064604 
-400.00, 0.064603 
